Folder: DSC-cursor/demo_data (part 2)

File: sapphire_103-303-2.txt
Filename:	C:\Program Files (x86)\PerkinElmer\Pyris\data\sapphire_103-303-2.ds8d
Operator ID:
Sample ID:	Sapphire
Comment:
Serial Number:
Data Collected:	7/16/2024 7:24:39 PM
Sample Weight:	23.400 mg
Display Weight:	23.400
Validation
Validated:	No
By:
Date:
Calibration Information
Filename:	C:\Program Files (x86)\PerkinElmer\Pyris\Calibrations\Calib100to400_07162024-1.ds8c
Date/Time:	7/16/2024 3:47:43 PM
Initial Conditions
Temperature:	 103.00 °C
Purge Gas:
Purge Gas Rate:
Baseline Filename:
End Condition:	Go To Load
Total Points in Run:	44947
Method Steps:
Pre-Run Actions
Switch the Gas to Nitrogen at 20.0 ml/min
	Action occurs Immediately
Start the Run
	Action occurs Immediately
1)	Hold for 5.0 min at 103.00°C

2)	Heat from 103.00°C to 113.00°C at 15.00°C/min

3)	Hold for 2.0 min at 113.00°C

4)	Heat from 113.00°C to 123.00°C at 15.00°C/min

5)	Hold for 2.0 min at 123.00°C

6)	Heat from 123.00°C to 133.00°C at 15.00°C/min

7)	Hold for 2.0 min at 133.00°C

8)	Heat from 133.00°C to 143.00°C at 15.00°C/min

9)	Hold for 2.0 min at 143.00°C

10)	Heat from 143.00°C to 153.00°C at 15.00°C/min

11)	Hold for 2.0 min at 153.00°C

12)	Heat from 153.00°C to 163.00°C at 15.00°C/min

13)	Hold for 2.0 min at 163.00°C

14)	Heat from 163.00°C to 173.00°C at 15.00°C/min

15)	Hold for 2.0 min at 173.00°C

16)	Heat from 173.00°C to 183.00°C at 15.00°C/min

17)	Hold for 2.0 min at 183.00°C

18)	Heat from 183.00°C to 193.00°C at 15.00°C/min

19)	Hold for 2.0 min at 193.00°C

20)	Heat from 193.00°C to 203.00°C at 15.00°C/min

21)	Hold for 2.0 min at 203.00°C

22)	Heat from 203.00°C to 213.00°C at 15.00°C/min

23)	Hold for 2.0 min at 213.00°C

24)	Heat from 213.00°C to 223.00°C at 15.00°C/min

25)	Hold for 2.0 min at 223.00°C

26)	Heat from 223.00°C to 233.00°C at 15.00°C/min

27)	Hold for 2.0 min at 233.00°C

28)	Heat from 233.00°C to 243.00°C at 15.00°C/min

29)	Hold for 2.0 min at 243.00°C

30)	Heat from 243.00°C to 253.00°C at 15.00°C/min

31)	Hold for 2.0 min at 253.00°C

32)	Heat from 253.00°C to 263.00°C at 15.00°C/min

33)	Hold for 2.0 min at 263.00°C

34)	Heat from 263.00°C to 273.00°C at 15.00°C/min

35)	Hold for 2.0 min at 273.00°C

36)	Heat from 273.00°C to 283.00°C at 15.00°C/min

37)	Hold for 2.0 min at 283.00°C

38)	Heat from 283.00°C to 293.00°C at 15.00°C/min

39)	Hold for 2.0 min at 293.00°C

40)	Heat from 293.00°C to 303.00°C at 15.00°C/min

41)	Hold for 3.0 min at 303.00°C

1) DSC 8500 Isothermal
	Time     	Unsubtracted	Baseline     	Program     	Sample     	Approx.     	Heat Flow     	Uncorrected
	          	Heat Flow     	Heat Flow     	Temperature	Temperature	Gas Flow     	Calibration	Heat Flow
	0.000000	66.0172	0.000000	103	100.766	0.000000	1.062474	68.3967
	0.033333	55.9055	0.000000	103	102.45	0.000000	1.062499	56.8655
	0.066667	53.8593	0.000000	103	102.691	0.000000	1.062503	54.8693
	0.100000	41.1807	0.000000	103	102.812	0.000000	1.062504	42.1919
	0.133333	27.1774	0.000000	103	102.879	0.000000	1.062505	28.3655
	0.166667	16.5577	0.000000	103	102.916	0.000000	1.062506	18.1153
	0.200000	9.669608	0.000000	103	102.933	0.000000	1.062506	11.5634
	0.233333	5.540496	0.000000	103	102.945	0.000000	1.062506	7.655252
	0.266667	3.167737	0.000000	103	102.954	0.000000	1.062507	5.408690
	0.300000	1.834917	0.000000	103	102.954	0.000000	1.062507	4.143563
	0.333333	1.095939	0.000000	103	102.958	0.000000	1.062507	3.439121
	0.366667	0.687912	0.000000	103	102.958	0.000000	1.062507	3.049181
	0.400000	0.463180	0.000000	103	102.962	0.000000	1.062507	2.834130
	0.433333	0.339412	0.000000	103	102.962	0.000000	1.062507	2.715130
	0.466667	0.269746	0.000000	103	102.962	0.000000	1.062507	2.647979
	0.500000	0.230093	0.000000	103	102.962	0.000000	1.062507	2.609623
	0.533333	0.208418	0.000000	103	102.962	0.000000	1.062507	2.587947
	0.566667	0.196093	0.000000	103	102.962	0.000000	1.062507	2.575622
	0.600000	0.188868	0.000000	103	102.962	0.000000	1.062507	2.568397
	0.633333	0.183981	0.000000	103	102.962	0.000000	1.062507	2.563510
	0.666667	0.180368	0.000000	103	102.962	0.000000	1.062507	2.559897
	0.700000	0.177818	0.000000	103	102.966	0.000000	1.062507	2.557347
	0.733333	0.176012	0.000000	103	102.962	0.000000	1.062507	2.555541
	0.766667	0.175268	0.000000	103	102.962	0.000000	1.062507	2.554797
	0.800000	0.174312	0.000000	103	102.962	0.000000	1.062507	2.553841
	0.833333	0.173037	0.000000	103	102.962	0.000000	1.062507	2.552566
	0.866667	0.171655	0.000000	103	102.962	0.000000	1.062507	2.551185
	0.900000	0.170805	0.000000	103	102.962	0.000000	1.062507	2.550335
	0.933333	0.170168	0.000000	103	102.962	0.000000	1.062507	2.549697
	0.966667	0.169530	0.000000	103	102.962	0.000000	1.062507	2.549060
	1.000000	0.168999	0.000000	103	102.962	0.000000	1.062507	2.548528
	1.033333	0.168149	0.000000	103	102.962	0.000000	1.062507	2.547678
	1.066667	0.166874	0.000000	103	102.962	0.000000	1.062507	2.546403
	1.100000	0.166024	0.000000	103	102.962	0.000000	1.062507	2.545553
	1.133333	0.165812	0.000000	103	102.962	0.000000	1.062507	2.545341
	1.166667	0.165068	0.000000	103	102.962	0.000000	1.062507	2.544597
	1.200000	0.164643	0.000000	103	102.962	0.000000	1.062507	2.544172
	1.233333	0.163899	0.000000	103	102.962	0.000000	1.062507	2.543428
	1.266667	0.163155	0.000000	103	102.962	0.000000	1.062507	2.542685
	1.300000	0.162943	0.000000	103	102.962	0.000000	1.062507	2.542472
	1.333333	0.162837	0.000000	103	102.962	0.000000	1.062507	2.542366
	1.366667	0.162943	0.000000	103	102.962	0.000000	1.062507	2.542472
	1.400000	0.162943	0.000000	103	102.962	0.000000	1.062507	2.542472
	1.433333	0.163049	0.000000	103	102.962	0.000000	1.062507	2.542578
	1.466667	0.162518	0.000000	103	102.962	0.000000	1.062507	2.542047
	1.500000	0.161987	0.000000	103	102.962	0.000000	1.062507	2.541516
	1.533333	0.161774	0.000000	103	102.962	0.000000	1.062507	2.541303
	1.566667	0.160924	0.000000	103	102.962	0.000000	1.062507	2.540453
	1.600000	0.160605	0.000000	103	102.962	0.000000	1.062507	2.540135
	1.633333	0.160499	0.000000	103	102.962	0.000000	1.062507	2.540028
	1.666667	0.160393	0.000000	103	102.962	0.000000	1.062507	2.539922
	1.700000	0.160393	0.000000	103	102.962	0.000000	1.062507	2.539922
	1.733333	0.160180	0.000000	103	102.962	0.000000	1.062507	2.539710
	1.766667	0.159862	0.000000	103	102.962	0.000000	1.062507	2.539391
	1.800000	0.159649	0.000000	103	102.962	0.000000	1.062507	2.539178
	1.833333	0.159543	0.000000	103	102.962	0.000000	1.062507	2.539072
	1.866667	0.159012	0.000000	103	102.962	0.000000	1.062507	2.538541
	1.900000	0.158799	0.000000	103	102.962	0.000000	1.062507	2.538328
	1.933333	0.158693	0.000000	103	102.962	0.000000	1.062507	2.538222
	1.966667	0.158374	0.000000	103	102.962	0.000000	1.062507	2.537903
	2.000000	0.158268	0.000000	103	102.962	0.000000	1.062507	2.537797
	2.033333	0.157630	0.000000	103	102.962	0.000000	1.062507	2.537160
	2.066667	0.157312	0.000000	103	102.962	0.000000	1.062507	2.536841
	2.100000	0.157099	0.000000	103	102.962	0.000000	1.062507	2.536628
	2.133333	0.156674	0.000000	103	102.962	0.000000	1.062507	2.536203
	2.166667	0.156462	0.000000	103	102.962	0.000000	1.062507	2.535991
	2.200000	0.156355	0.000000	103	102.962	0.000000	1.062507	2.535885
	2.233333	0.156568	0.000000	103	102.962	0.000000	1.062507	2.536097
	2.266667	0.157099	0.000000	103	102.962	0.000000	1.062507	2.536628
	2.300000	0.157524	0.000000	103	102.962	0.000000	1.062507	2.537053
[...]
	58.3133	-0.243972	0.000000	303	302.95	0.000000	1.065513	1.297262
	58.3333	-0.243759	0.000000	303	302.95	0.000000	1.065513	1.297475
	58.3533	-0.244185	0.000000	303	302.95	0.000000	1.065513	1.297049
	58.3733	-0.244079	0.000000	303	302.95	0.000000	1.065513	1.297155
	58.3933	-0.244185	0.000000	303	302.945	0.000000	1.065513	1.297049
	58.4133	-0.244185	0.000000	303	302.95	0.000000	1.065513	1.297049
	58.4333	-0.243866	0.000000	303	302.95	0.000000	1.065513	1.297368
	58.4533	-0.244292	0.000000	303	302.95	0.000000	1.065513	1.296942
	58.4733	-0.244931	0.000000	303	302.95	0.000000	1.065513	1.296303
	58.4933	-0.245144	0.000000	303	302.95	0.000000	1.065513	1.296090
	58.5133	-0.245997	0.000000	303	302.95	0.000000	1.065513	1.295237
	58.5333	-0.246103	0.000000	303	302.945	0.000000	1.065513	1.295131
	58.5533	-0.246529	0.000000	303	302.95	0.000000	1.065513	1.294704
	58.5733	-0.246743	0.000000	303	302.95	0.000000	1.065513	1.294491
	58.5933	-0.246849	0.000000	303	302.95	0.000000	1.065513	1.294385
	58.6133	-0.246849	0.000000	303	302.95	0.000000	1.065513	1.294385
	58.6333	-0.247808	0.000000	303	302.945	0.000000	1.065513	1.293426
	58.6533	-0.248448	0.000000	303	302.941	0.000000	1.065513	1.292786
	58.6733	-0.248661	0.000000	303	302.945	0.000000	1.065513	1.292573
	58.6933	-0.248554	0.000000	303	302.95	0.000000	1.065513	1.292680
	58.7133	-0.248341	0.000000	303	302.95	0.000000	1.065513	1.292893
	58.7333	-0.248234	0.000000	303	302.95	0.000000	1.065513	1.293000
	58.7533	-0.248660	0.000000	303	302.95	0.000000	1.065513	1.292573
	58.7733	-0.248874	0.000000	303	302.954	0.000000	1.065513	1.292360
	58.7933	-0.249406	0.000000	303	302.945	0.000000	1.065513	1.291828
	58.8133	-0.249193	0.000000	303	302.95	0.000000	1.065513	1.292041
	58.8333	-0.249087	0.000000	303	302.95	0.000000	1.065513	1.292147
	58.8533	-0.249193	0.000000	303	302.95	0.000000	1.065513	1.292041
	58.8733	-0.249087	0.000000	303	302.95	0.000000	1.065513	1.292147
	58.8933	-0.249087	0.000000	303	302.945	0.000000	1.065513	1.292147
	58.9133	-0.249193	0.000000	303	302.95	0.000000	1.065513	1.292041
	58.9333	-0.248767	0.000000	303	302.95	0.000000	1.065513	1.292467
	58.9533	-0.249087	0.000000	303	302.945	0.000000	1.065513	1.292147
	58.9733	-0.249513	0.000000	303	302.945	0.000000	1.065513	1.291721
	58.9933	-0.249726	0.000000	303	302.95	0.000000	1.065513	1.291508
	59.0133	-0.249619	0.000000	303	302.95	0.000000	1.065513	1.291615
	59.0333	-0.250365	0.000000	303	302.945	0.000000	1.065513	1.290869
	59.0533	-0.251111	0.000000	303	302.95	0.000000	1.065513	1.290123
	59.0733	-0.251964	0.000000	303	302.95	0.000000	1.065513	1.289270
	59.0933	-0.252816	0.000000	303	302.95	0.000000	1.065513	1.288418
	59.1133	-0.253242	0.000000	303	302.95	0.000000	1.065513	1.287992
	59.1333	-0.253668	0.000000	303	302.945	0.000000	1.065513	1.287565
	59.1533	-0.254414	0.000000	303	302.95	0.000000	1.065513	1.286820
	59.1733	-0.254308	0.000000	303	302.95	0.000000	1.065513	1.286926
	59.1933	-0.255054	0.000000	303	302.95	0.000000	1.065513	1.286180
	59.2133	-0.255054	0.000000	303	302.95	0.000000	1.065513	1.286180
	59.2333	-0.254627	0.000000	303	302.95	0.000000	1.065513	1.286607
	59.2533	-0.255054	0.000000	303	302.95	0.000000	1.065513	1.286180
	59.2733	-0.255160	0.000000	303	302.95	0.000000	1.065513	1.286074
	59.2933	-0.255586	0.000000	303	302.945	0.000000	1.065513	1.285648
	59.3133	-0.256332	0.000000	303	302.945	0.000000	1.065513	1.284902
	59.3333	-0.256439	0.000000	303	302.95	0.000000	1.065513	1.284795
	59.3533	-0.257291	0.000000	303	302.95	0.000000	1.065513	1.283943
	59.3733	-0.257504	0.000000	303	302.95	0.000000	1.065513	1.283730
	59.375	-0.257398	0.000000	303	302.95	0.000000	1.065513	1.283836