Folder: DSC-cursor/demo_data

Note: README.md
# DSC-cursor
for Differential Scanning Calorimetry Step Scan Data

The function relies on colbystoddard/dsc_thermo; https://github.com/colbystoddard/dsc_thermo to realize importing the original DSC txt file into python arrays.

File: empty_103-303-2.txt
Filename:	C:\Program Files (x86)\PerkinElmer\Pyris\data\empty_103-303-2.ds8d
Operator ID:
Sample ID:	Empty
Comment:
Serial Number:
Data Collected:	7/16/2024 6:21:19 PM
Sample Weight:	0.000 mg
Display Weight:	0.000
Validation
Validated:	No
By:
Date:
Calibration Information
Filename:	C:\Program Files (x86)\PerkinElmer\Pyris\Calibrations\Calib100to400_07162024-1.ds8c
Date/Time:	7/16/2024 3:47:43 PM
Initial Conditions
Temperature:	 103.00 °C
Purge Gas:
Purge Gas Rate:
Baseline Filename:
End Condition:	Go To Load
Total Points in Run:	44948
Method Steps:
Pre-Run Actions
Switch the Gas to Nitrogen at 20.0 ml/min
	Action occurs Immediately
Start the Run
	Action occurs Immediately
1)	Hold for 5.0 min at 103.00°C

2)	Heat from 103.00°C to 113.00°C at 15.00°C/min

3)	Hold for 2.0 min at 113.00°C

4)	Heat from 113.00°C to 123.00°C at 15.00°C/min

5)	Hold for 2.0 min at 123.00°C

6)	Heat from 123.00°C to 133.00°C at 15.00°C/min

7)	Hold for 2.0 min at 133.00°C

8)	Heat from 133.00°C to 143.00°C at 15.00°C/min

9)	Hold for 2.0 min at 143.00°C

10)	Heat from 143.00°C to 153.00°C at 15.00°C/min

11)	Hold for 2.0 min at 153.00°C

12)	Heat from 153.00°C to 163.00°C at 15.00°C/min

13)	Hold for 2.0 min at 163.00°C

14)	Heat from 163.00°C to 173.00°C at 15.00°C/min

15)	Hold for 2.0 min at 173.00°C

16)	Heat from 173.00°C to 183.00°C at 15.00°C/min

17)	Hold for 2.0 min at 183.00°C

18)	Heat from 183.00°C to 193.00°C at 15.00°C/min

19)	Hold for 2.0 min at 193.00°C

20)	Heat from 193.00°C to 203.00°C at 15.00°C/min

21)	Hold for 2.0 min at 203.00°C

22)	Heat from 203.00°C to 213.00°C at 15.00°C/min

23)	Hold for 2.0 min at 213.00°C

24)	Heat from 213.00°C to 223.00°C at 15.00°C/min

25)	Hold for 2.0 min at 223.00°C

26)	Heat from 223.00°C to 233.00°C at 15.00°C/min

27)	Hold for 2.0 min at 233.00°C

28)	Heat from 233.00°C to 243.00°C at 15.00°C/min

29)	Hold for 2.0 min at 243.00°C

30)	Heat from 243.00°C to 253.00°C at 15.00°C/min

31)	Hold for 2.0 min at 253.00°C

32)	Heat from 253.00°C to 263.00°C at 15.00°C/min

33)	Hold for 2.0 min at 263.00°C

34)	Heat from 263.00°C to 273.00°C at 15.00°C/min

35)	Hold for 2.0 min at 273.00°C

36)	Heat from 273.00°C to 283.00°C at 15.00°C/min

37)	Hold for 2.0 min at 283.00°C

38)	Heat from 283.00°C to 293.00°C at 15.00°C/min

39)	Hold for 2.0 min at 293.00°C

40)	Heat from 293.00°C to 303.00°C at 15.00°C/min

41)	Hold for 3.0 min at 303.00°C

1) DSC 8500 Isothermal
	Time     	Unsubtracted	Baseline     	Program     	Sample     	Approx.     	Heat Flow     	Uncorrected
	          	Heat Flow     	Heat Flow     	Temperature	Temperature	Gas Flow     	Calibration	Heat Flow
	0.000000	10.4976	0.000000	103	100.854	0.000000	1.062475	12.8771
	0.033333	15.9242	0.000000	103	102.545	0.000000	1.062500	10.4211
	0.066667	18.1138	0.000000	103	102.758	0.000000	1.062504	12.7843
	0.100000	17.3045	0.000000	103	102.854	0.000000	1.062505	11.9863
	0.133333	13.3285	0.000000	103	102.904	0.000000	1.062506	8.974774
	0.166667	8.524906	0.000000	103	102.933	0.000000	1.062506	6.238930
	0.200000	4.847910	0.000000	103	102.95	0.000000	1.062506	4.462421
	0.233333	2.588131	0.000000	103	102.954	0.000000	1.062507	3.458034
	0.266667	1.337311	0.000000	103	102.962	0.000000	1.062507	2.925931
	0.300000	0.677949	0.000000	103	102.966	0.000000	1.062507	2.652867
	0.333333	0.343130	0.000000	103	102.966	0.000000	1.062507	2.515272
	0.366667	0.171101	0.000000	103	102.97	0.000000	1.062507	2.446634
	0.400000	0.081549	0.000000	103	102.966	0.000000	1.062507	2.412422
	0.433333	0.038356	0.000000	103	102.97	0.000000	1.062507	2.396272
	0.466667	0.016214	0.000000	103	102.97	0.000000	1.062507	2.388515
	0.500000	0.005480	0.000000	103	102.97	0.000000	1.062507	2.385009
	0.533333	0.003886	0.000000	103	102.97	0.000000	1.062507	2.383415
	0.566667	0.003248	0.000000	103	102.97	0.000000	1.062507	2.382778
	0.600000	0.003567	0.000000	103	102.97	0.000000	1.062507	2.383096
	0.633333	0.003992	0.000000	103	102.97	0.000000	1.062507	2.383521
	0.666667	0.004205	0.000000	103	102.97	0.000000	1.062507	2.383734
	0.700000	0.004736	0.000000	103	102.97	0.000000	1.062507	2.384265
	0.733333	0.005055	0.000000	103	102.97	0.000000	1.062507	2.384584
	0.766667	0.005480	0.000000	103	102.97	0.000000	1.062507	2.385009
	0.800000	0.006117	0.000000	103	102.97	0.000000	1.062507	2.385646
	0.833333	0.006436	0.000000	103	102.97	0.000000	1.062507	2.385965
	0.866667	0.006755	0.000000	103	102.97	0.000000	1.062507	2.386284
	0.900000	0.007180	0.000000	103	102.97	0.000000	1.062507	2.386709
	0.933333	0.007605	0.000000	103	102.97	0.000000	1.062507	2.387134
	0.966667	0.008136	0.000000	103	102.97	0.000000	1.062507	2.387665
	1.000000	0.008136	0.000000	103	102.97	0.000000	1.062507	2.387665
	1.033333	0.008242	0.000000	103	102.97	0.000000	1.062507	2.387771
	1.066667	0.008561	0.000000	103	102.97	0.000000	1.062507	2.388090
	1.100000	0.009092	0.000000	103	102.97	0.000000	1.062507	2.388621
	1.133333	0.009411	0.000000	103	102.97	0.000000	1.062507	2.388940
	1.166667	0.009517	0.000000	103	102.97	0.000000	1.062507	2.389047
	1.200000	0.009411	0.000000	103	102.97	0.000000	1.062507	2.388940
	1.233333	0.009836	0.000000	103	102.97	0.000000	1.062507	2.389365
	1.266667	0.010155	0.000000	103	102.97	0.000000	1.062507	2.389684
	1.300000	0.010580	0.000000	103	102.97	0.000000	1.062507	2.390109
	1.333333	0.010473	0.000000	103	102.97	0.000000	1.062507	2.390003
	1.366667	0.010367	0.000000	103	102.97	0.000000	1.062507	2.389897
	1.400000	0.010686	0.000000	103	102.97	0.000000	1.062507	2.390215
	1.433333	0.010898	0.000000	103	102.97	0.000000	1.062507	2.390428
	1.466667	0.010792	0.000000	103	102.97	0.000000	1.062507	2.390322
	1.500000	0.010898	0.000000	103	102.97	0.000000	1.062507	2.390428
	1.533333	0.010580	0.000000	103	102.97	0.000000	1.062507	2.390109
	1.566667	0.010367	0.000000	103	102.97	0.000000	1.062507	2.389897
	1.600000	0.010473	0.000000	103	102.97	0.000000	1.062507	2.390003
	1.633333	0.010155	0.000000	103	102.97	0.000000	1.062507	2.389684
	1.666667	0.009730	0.000000	103	102.97	0.000000	1.062507	2.389259
	1.700000	0.009623	0.000000	103	102.97	0.000000	1.062507	2.389153
	1.733333	0.009730	0.000000	103	102.97	0.000000	1.062507	2.389259
	1.766667	0.009623	0.000000	103	102.97	0.000000	1.062507	2.389153
	1.800000	0.009623	0.000000	103	102.97	0.000000	1.062507	2.389153
	1.833333	0.009517	0.000000	103	102.97	0.000000	1.062507	2.389047
	1.866667	0.009517	0.000000	103	102.97	0.000000	1.062507	2.389047
	1.900000	0.009517	0.000000	103	102.97	0.000000	1.062507	2.389047
	1.933333	0.009411	0.000000	103	102.97	0.000000	1.062507	2.388940
	1.966667	0.009411	0.000000	103	102.97	0.000000	1.062507	2.388940
	2.000000	0.009198	0.000000	103	102.97	0.000000	1.062507	2.388728
	2.033333	0.009092	0.000000	103	102.97	0.000000	1.062507	2.388621
	2.066667	0.009092	0.000000	103	102.97	0.000000	1.062507	2.388621
	2.100000	0.009411	0.000000	103	102.97	0.000000	1.062507	2.388940
	2.133333	0.009730	0.000000	103	102.97	0.000000	1.062507	2.389259
	2.166667	0.009836	0.000000	103	102.97	0.000000	1.062507	2.389365
	2.200000	0.010155	0.000000	103	102.97	0.000000	1.062507	2.389684
	2.233333	0.010686	0.000000	103	102.97	0.000000	1.062507	2.390215
	2.266667	0.010792	0.000000	103	102.97	0.000000	1.062507	2.390322
	2.300000	0.010898	0.000000	103	102.97	0.000000	1.062507	2.390428
	2.333333	0.011111	0.000000	103	102.97	0.000000	1.062507	2.390640
[...]
	58.3333	-0.699585	0.000000	303	302.958	0.000000	1.065513	0.841649
	58.3533	-0.699585	0.000000	303	302.958	0.000000	1.065513	0.841649
	58.3733	-0.699692	0.000000	303	302.954	0.000000	1.065513	0.841542
	58.3933	-0.699585	0.000000	303	302.958	0.000000	1.065513	0.841649
	58.4133	-0.699905	0.000000	303	302.958	0.000000	1.065513	0.841329
	58.4333	-0.700012	0.000000	303	302.954	0.000000	1.065513	0.841222
	58.4533	-0.700225	0.000000	303	302.958	0.000000	1.065513	0.841009
	58.4733	-0.700544	0.000000	303	302.958	0.000000	1.065513	0.840690
	58.4933	-0.700757	0.000000	303	302.958	0.000000	1.065513	0.840477
	58.5133	-0.701077	0.000000	303	302.958	0.000000	1.065513	0.840157
	58.5333	-0.701610	0.000000	303	302.958	0.000000	1.065513	0.839624
	58.5533	-0.701610	0.000000	303	302.958	0.000000	1.065513	0.839624
	58.5733	-0.702356	0.000000	303	302.958	0.000000	1.065513	0.838878
	58.5933	-0.701929	0.000000	303	302.962	0.000000	1.065513	0.839305
	58.6133	-0.702569	0.000000	303	302.954	0.000000	1.065513	0.838665
	58.6333	-0.703208	0.000000	303	302.958	0.000000	1.065513	0.838026
	58.6533	-0.703954	0.000000	303	302.958	0.000000	1.065513	0.837280
	58.6733	-0.704593	0.000000	303	302.958	0.000000	1.065513	0.836641
	58.6933	-0.704487	0.000000	303	302.954	0.000000	1.065513	0.836747
	58.7133	-0.704806	0.000000	303	302.958	0.000000	1.065513	0.836428
	58.7333	-0.705126	0.000000	303	302.954	0.000000	1.065513	0.836108
	58.7533	-0.705446	0.000000	303	302.958	0.000000	1.065513	0.835788
	58.7733	-0.705339	0.000000	303	302.958	0.000000	1.065513	0.835895
	58.7933	-0.705765	0.000000	303	302.958	0.000000	1.065513	0.835469
	58.8133	-0.706085	0.000000	303	302.954	0.000000	1.065513	0.835149
	58.8333	-0.706724	0.000000	303	302.954	0.000000	1.065513	0.834510
	58.8533	-0.706831	0.000000	303	302.954	0.000000	1.065513	0.834403
	58.8733	-0.707044	0.000000	303	302.958	0.000000	1.065513	0.834190
	58.8933	-0.707044	0.000000	303	302.958	0.000000	1.065513	0.834190
	58.9133	-0.707683	0.000000	303	302.958	0.000000	1.065513	0.833551
	58.9333	-0.708003	0.000000	303	302.958	0.000000	1.065513	0.833231
	58.9533	-0.708109	0.000000	303	302.958	0.000000	1.065513	0.833124
	58.9733	-0.708109	0.000000	303	302.958	0.000000	1.065513	0.833124
	58.9933	-0.707683	0.000000	303	302.954	0.000000	1.065513	0.833551
	59.0133	-0.708216	0.000000	303	302.958	0.000000	1.065513	0.833018
	59.0333	-0.708749	0.000000	303	302.958	0.000000	1.065513	0.832485
	59.0533	-0.709388	0.000000	303	302.958	0.000000	1.065513	0.831846
	59.0733	-0.709601	0.000000	303	302.954	0.000000	1.065513	0.831633
	59.0933	-0.710134	0.000000	303	302.958	0.000000	1.065513	0.831100
	59.1133	-0.709495	0.000000	303	302.954	0.000000	1.065513	0.831739
	59.1333	-0.709921	0.000000	303	302.958	0.000000	1.065513	0.831313
	59.1533	-0.710347	0.000000	303	302.958	0.000000	1.065513	0.830887
	59.1733	-0.710454	0.000000	303	302.958	0.000000	1.065513	0.830780
	59.1933	-0.710454	0.000000	303	302.958	0.000000	1.065513	0.830780
	59.2133	-0.710773	0.000000	303	302.954	0.000000	1.065513	0.830461
	59.2333	-0.710773	0.000000	303	302.958	0.000000	1.065513	0.830461
	59.2533	-0.710773	0.000000	303	302.958	0.000000	1.065513	0.830461
	59.2733	-0.710880	0.000000	303	302.954	0.000000	1.065513	0.830354
	59.2933	-0.711519	0.000000	303	302.958	0.000000	1.065513	0.829715
	59.3133	-0.711413	0.000000	303	302.958	0.000000	1.065513	0.829821
	59.3333	-0.711626	0.000000	303	302.958	0.000000	1.065513	0.829608
	59.3533	-0.711306	0.000000	303	302.958	0.000000	1.065513	0.829928
	59.3733	-0.710454	0.000000	303	302.958	0.000000	1.065513	0.830780
	59.3767	-0.710347	0.000000	303	302.958	0.000000	1.065513	0.830887

File: Pt60_100-300-4.txt
Filename:	C:\Program Files (x86)\PerkinElmer\Pyris\data\Pt60_100-300-4.ds8d
Operator ID:
Sample ID:	Pt60
Comment:
Serial Number:
Data Collected:	7/15/2024 2:44:43 PM
Sample Weight:	16.600 mg
Display Weight:	16.600
Validation
Validated:	No
By:
Date:
Calibration Information
Filename:	C:\Program Files (x86)\PerkinElmer\Pyris\Calibrations\Calib100to400_07102024-1.ds8c
Date/Time:	7/11/2024 12:54:01 PM
Initial Conditions
Temperature:	 100.00 °C
Purge Gas:
Purge Gas Rate:
Baseline Filename:
End Condition:	Go To Load
Total Points in Run:	46150
Method Steps:
Pre-Run Actions
Switch the Gas to Nitrogen at 20.0 ml/min
	Action occurs Immediately
Start the Run
	Action occurs Immediately
1)	Hold for 5.0 min at 100.00°C

2)	Heat from 100.00°C to 110.00°C at 15.00°C/min

3)	Hold for 2.0 min at 110.00°C

4)	Heat from 110.00°C to 120.00°C at 15.00°C/min

5)	Hold for 2.0 min at 120.00°C

6)	Heat from 120.00°C to 130.00°C at 15.00°C/min

7)	Hold for 2.0 min at 130.00°C

8)	Heat from 130.00°C to 140.00°C at 15.00°C/min

9)	Hold for 2.0 min at 140.00°C

10)	Heat from 140.00°C to 150.00°C at 15.00°C/min

11)	Hold for 2.0 min at 150.00°C

12)	Heat from 150.00°C to 160.00°C at 15.00°C/min

13)	Hold for 2.0 min at 160.00°C

14)	Heat from 160.00°C to 170.00°C at 15.00°C/min

15)	Hold for 2.0 min at 170.00°C

16)	Heat from 170.00°C to 180.00°C at 15.00°C/min

17)	Hold for 2.0 min at 180.00°C

18)	Heat from 180.00°C to 190.00°C at 15.00°C/min

19)	Hold for 2.0 min at 190.00°C

20)	Heat from 190.00°C to 200.00°C at 15.00°C/min

21)	Hold for 2.0 min at 200.00°C

22)	Heat from 200.00°C to 210.00°C at 15.00°C/min

23)	Hold for 2.0 min at 210.00°C

24)	Heat from 210.00°C to 220.00°C at 15.00°C/min

25)	Hold for 2.0 min at 220.00°C

26)	Heat from 220.00°C to 230.00°C at 15.00°C/min

27)	Hold for 2.0 min at 230.00°C

28)	Heat from 230.00°C to 240.00°C at 15.00°C/min

29)	Hold for 2.0 min at 240.00°C

30)	Heat from 240.00°C to 250.00°C at 15.00°C/min

31)	Hold for 2.0 min at 250.00°C

32)	Heat from 250.00°C to 260.00°C at 15.00°C/min

33)	Hold for 2.0 min at 260.00°C

34)	Heat from 260.00°C to 270.00°C at 15.00°C/min

35)	Hold for 2.0 min at 270.00°C

36)	Heat from 270.00°C to 280.00°C at 15.00°C/min

37)	Hold for 2.0 min at 280.00°C

38)	Heat from 280.00°C to 290.00°C at 15.00°C/min

39)	Hold for 2.0 min at 290.00°C

40)	Heat from 290.00°C to 300.00°C at 15.00°C/min

41)	Hold for 5.0 min at 300.00°C

1) DSC 8500 Isothermal
	Time     	Unsubtracted	Baseline     	Program     	Sample     	Approx.     	Heat Flow     	Uncorrected
	          	Heat Flow     	Heat Flow     	Temperature	Temperature	Gas Flow     	Calibration	Heat Flow
	0.000000	20.7557	0.000000	100	97.808	0.000000	1.062429	22.6794
	0.033333	22.529	0.000000	100	99.512	0.000000	1.062455	16.5553
	0.066667	21.4502	0.000000	100	99.729	0.000000	1.062458	13.8882
	0.100000	20.3776	0.000000	100	99.833	0.000000	1.062460	10.2616
	0.133333	17.0062	0.000000	100	99.895	0.000000	1.062461	7.305691
	0.166667	11.6435	0.000000	100	99.929	0.000000	1.062461	5.355866
	0.200000	7.107793	0.000000	100	99.95	0.000000	1.062461	4.188967
	0.233333	4.217886	0.000000	100	99.958	0.000000	1.062462	3.529710
	0.266667	2.596175	0.000000	100	99.962	0.000000	1.062462	3.170173
	0.300000	1.742453	0.000000	100	99.966	0.000000	1.062462	2.977761
	0.333333	1.303910	0.000000	100	99.97	0.000000	1.062462	2.876403
	0.366667	1.077053	0.000000	100	99.97	0.000000	1.062462	2.822642
	0.400000	0.955841	0.000000	100	99.97	0.000000	1.062462	2.794168
	0.433333	0.894382	0.000000	100	99.97	0.000000	1.062462	2.778975
	0.466667	0.857933	0.000000	100	99.975	0.000000	1.062462	2.770475
	0.500000	0.842033	0.000000	100	99.97	0.000000	1.062462	2.765694
	0.533333	0.839165	0.000000	100	99.975	0.000000	1.062462	2.762826
	0.566667	0.837252	0.000000	100	99.97	0.000000	1.062462	2.760913
	0.600000	0.835553	0.000000	100	99.975	0.000000	1.062462	2.759213
	0.633333	0.834384	0.000000	100	99.975	0.000000	1.062462	2.758044
	0.666667	0.833321	0.000000	100	99.975	0.000000	1.062462	2.756982
	0.700000	0.832365	0.000000	100	99.975	0.000000	1.062462	2.756026
	0.733333	0.831727	0.000000	100	99.97	0.000000	1.062462	2.755388
	0.766667	0.831090	0.000000	100	99.97	0.000000	1.062462	2.754751
	0.800000	0.830453	0.000000	100	99.975	0.000000	1.062462	2.754113
	0.833333	0.829815	0.000000	100	99.975	0.000000	1.062462	2.753476
	0.866667	0.829072	0.000000	100	99.975	0.000000	1.062462	2.752732
	0.900000	0.828859	0.000000	100	99.975	0.000000	1.062462	2.752520
	0.933333	0.828222	0.000000	100	99.975	0.000000	1.062462	2.751882
	0.966667	0.827903	0.000000	100	99.975	0.000000	1.062462	2.751563
	1.000000	0.827690	0.000000	100	99.97	0.000000	1.062462	2.751351
	1.033333	0.827478	0.000000	100	99.975	0.000000	1.062462	2.751138
	1.066667	0.827265	0.000000	100	99.975	0.000000	1.062462	2.750926
	1.100000	0.827053	0.000000	100	99.97	0.000000	1.062462	2.750713
	1.133333	0.827053	0.000000	100	99.975	0.000000	1.062462	2.750714
	1.166667	0.827053	0.000000	100	99.975	0.000000	1.062462	2.750714
	1.200000	0.827053	0.000000	100	99.975	0.000000	1.062462	2.750714
	1.233333	0.827159	0.000000	100	99.97	0.000000	1.062462	2.750820
	1.266667	0.827159	0.000000	100	99.975	0.000000	1.062462	2.750820
	1.300000	0.827478	0.000000	100	99.975	0.000000	1.062462	2.751138
	1.333333	0.827584	0.000000	100	99.97	0.000000	1.062462	2.751245
	1.366667	0.827690	0.000000	100	99.97	0.000000	1.062462	2.751351
	1.400000	0.828115	0.000000	100	99.975	0.000000	1.062462	2.751776
	1.433333	0.828221	0.000000	100	99.97	0.000000	1.062462	2.751882
	1.466667	0.828434	0.000000	100	99.975	0.000000	1.062462	2.752095
	1.500000	0.828222	0.000000	100	99.975	0.000000	1.062462	2.751882
	1.533333	0.827690	0.000000	100	99.975	0.000000	1.062462	2.751351
	1.566667	0.827478	0.000000	100	99.97	0.000000	1.062462	2.751138
	1.600000	0.827478	0.000000	100	99.975	0.000000	1.062462	2.751138
	1.633333	0.827159	0.000000	100	99.975	0.000000	1.062462	2.750820
	1.666667	0.827159	0.000000	100	99.975	0.000000	1.062462	2.750820
	1.700000	0.826840	0.000000	100	99.975	0.000000	1.062462	2.750501
	1.733333	0.826628	0.000000	100	99.975	0.000000	1.062462	2.750289
	1.766667	0.826309	0.000000	100	99.975	0.000000	1.062462	2.749970
	1.800000	0.826309	0.000000	100	99.97	0.000000	1.062462	2.749970
	1.833333	0.826203	0.000000	100	99.97	0.000000	1.062462	2.749863
	1.866667	0.826203	0.000000	100	99.97	0.000000	1.062462	2.749863
	1.900000	0.826309	0.000000	100	99.97	0.000000	1.062462	2.749970
	1.933333	0.826946	0.000000	100	99.97	0.000000	1.062462	2.750607
	1.966667	0.827159	0.000000	100	99.97	0.000000	1.062462	2.750820
	2.000000	0.827690	0.000000	100	99.97	0.000000	1.062462	2.751351
	2.033333	0.827797	0.000000	100	99.975	0.000000	1.062462	2.751457
	2.066667	0.828115	0.000000	100	99.975	0.000000	1.062462	2.751776
	2.100000	0.828222	0.000000	100	99.975	0.000000	1.062462	2.751882
	2.133333	0.828328	0.000000	100	99.975	0.000000	1.062462	2.751988
	2.166667	0.828222	0.000000	100	99.975	0.000000	1.062462	2.751882
	2.200000	0.828115	0.000000	100	99.97	0.000000	1.062462	2.751776
	2.233333	0.828221	0.000000	100	99.97	0.000000	1.062462	2.751882
	2.266667	0.828115	0.000000	100	99.975	0.000000	1.062462	2.751776
	2.300000	0.827796	0.000000	100	99.97	0.000000	1.062462	2.751457
	2.333333	0.827584	0.000000	100	99.97	0.000000	1.062462	2.751245
[...]
	59.5733	4.490738	0.000000	300	299.97	0.000000	1.065468	2.824023
	59.6067	4.491271	0.000000	300	299.966	0.000000	1.065468	2.824555
	59.64	4.490952	0.000000	300	299.975	0.000000	1.065468	2.824236
	59.6733	4.491165	0.000000	300	299.97	0.000000	1.065468	2.824449
	59.7067	4.492124	0.000000	300	299.975	0.000000	1.065468	2.825408
	59.74	4.492550	0.000000	300	299.97	0.000000	1.065468	2.825834
	59.7733	4.492869	0.000000	300	299.97	0.000000	1.065468	2.826154
	59.8067	4.492230	0.000000	300	299.97	0.000000	1.065468	2.825514
	59.84	4.492550	0.000000	300	299.975	0.000000	1.065468	2.825834
	59.8733	4.492763	0.000000	300	299.975	0.000000	1.065468	2.826047
	59.9067	4.492443	0.000000	300	299.97	0.000000	1.065468	2.825727
	59.94	4.491804	0.000000	300	299.975	0.000000	1.065468	2.825088
	59.9733	4.492763	0.000000	300	299.975	0.000000	1.065468	2.826047
	60.0067	4.493722	0.000000	300	299.975	0.000000	1.065468	2.827006
	60.04	4.493722	0.000000	300	299.966	0.000000	1.065468	2.827006
	60.0733	4.493828	0.000000	300	299.975	0.000000	1.065468	2.827113
	60.1067	4.494254	0.000000	300	299.97	0.000000	1.065468	2.827539
	60.14	4.494148	0.000000	300	299.97	0.000000	1.065468	2.827432
	60.1733	4.494361	0.000000	300	299.975	0.000000	1.065468	2.827645
	60.2067	4.495213	0.000000	300	299.97	0.000000	1.065468	2.828498
	60.24	4.495959	0.000000	300	299.975	0.000000	1.065468	2.829244
	60.2733	4.495213	0.000000	300	299.97	0.000000	1.065468	2.828498
	60.3067	4.495640	0.000000	300	299.97	0.000000	1.065468	2.828924
	60.34	4.495426	0.000000	300	299.966	0.000000	1.065468	2.828711
	60.3733	4.497664	0.000000	300	299.966	0.000000	1.065468	2.830948
	60.4067	4.500967	0.000000	300	299.97	0.000000	1.065468	2.834251
	60.44	4.503524	0.000000	300	299.975	0.000000	1.065468	2.836809
	60.4733	4.507253	0.000000	300	299.97	0.000000	1.065468	2.840537
	60.5067	4.510023	0.000000	300	299.97	0.000000	1.065468	2.843308
	60.54	4.512687	0.000000	300	299.97	0.000000	1.065468	2.845971
	60.5733	4.513646	0.000000	300	299.975	0.000000	1.065468	2.846930
	60.6067	4.514925	0.000000	300	299.97	0.000000	1.065468	2.848209
	60.64	4.515138	0.000000	300	299.97	0.000000	1.065468	2.848422
	60.6733	4.516310	0.000000	300	299.975	0.000000	1.065468	2.849594
	60.7067	4.516736	0.000000	300	299.975	0.000000	1.065468	2.850020
	60.74	4.517056	0.000000	300	299.975	0.000000	1.065468	2.850340
	60.7733	4.515244	0.000000	300	299.975	0.000000	1.065468	2.848529
	60.8067	4.514712	0.000000	300	299.975	0.000000	1.065468	2.847996
	60.84	4.513326	0.000000	300	299.97	0.000000	1.065468	2.846611
	60.8733	4.512368	0.000000	300	299.975	0.000000	1.065468	2.845652
	60.9067	4.511089	0.000000	300	299.97	0.000000	1.065468	2.844373
	60.94	4.509810	0.000000	300	299.97	0.000000	1.065468	2.843095
	60.9733	4.509064	0.000000	300	299.97	0.000000	1.065468	2.842349
	61.0067	4.508212	0.000000	300	299.975	0.000000	1.065468	2.841497
	61.04	4.507573	0.000000	300	299.975	0.000000	1.065468	2.840857
	61.0733	4.506827	0.000000	300	299.975	0.000000	1.065468	2.840111
	61.1067	4.505975	0.000000	300	299.97	0.000000	1.065468	2.839259
	61.14	4.505655	0.000000	300	299.975	0.000000	1.065468	2.838939
	61.1733	4.504696	0.000000	300	299.97	0.000000	1.065468	2.837980
	61.2067	4.504163	0.000000	300	299.975	0.000000	1.065468	2.837448
	61.24	4.502565	0.000000	300	299.975	0.000000	1.065468	2.835850
	61.2733	4.501819	0.000000	300	299.975	0.000000	1.065468	2.835104
	61.3067	4.500328	0.000000	300	299.975	0.000000	1.065468	2.833612
	61.34	4.499902	0.000000	300	299.975	0.000000	1.065468	2.833186
	61.3733	4.498730	0.000000	300	299.975	0.000000	1.065468	2.832014
	61.38	4.498410	0.000000	300	299.975	0.000000	1.065468	2.831694